participant_name,session_start,trial_number,trial_timestamp,trial_time_elapsed,target_side,alpha_o1,alpha_o2,alpha_p3,alpha_p4,attention_direction,reaction_time,confidence,ball_position_x,ball_target_x,trial_duration,notes,asymmetry,is_correct
test06,2025-07-18 20:35:23,1,2025-07-18 20:36:13.541,50.044,right,20.200177,20.817027,6.876117,5.362917,center,0.5,0.02453,,,5,,-0.030079890856534,0
test06,2025-07-18 20:35:23,2,2025-07-18 20:36:18.556,55.059,left,10.054814,8.073975,7.473992,2.9784,center,0.5,0.219406,,,5,,0.219405598726675,0
test06,2025-07-18 20:35:23,3,2025-07-18 20:36:23.579,60.082,left,18.93971,17.43094,5.79433,11.129351,center,0.5,0.083014,,,5,,0.083013988047182,0
test06,2025-07-18 20:35:23,4,2025-07-18 20:36:28.599,65.102,left,16.552487,19.504172,8.679561,4.768475,center,0.5,0.164092,,,5,,-0.164092028967183,1
test06,2025-07-18 20:35:23,5,2025-07-18 20:36:33.610,70.112,right,16.503765,11.018048,10.976612,6.373717,center,0.5,0.404054,,,5,,0.404053881146637,1
test06,2025-07-18 20:35:23,6,2025-07-18 20:36:38.618,75.121,right,12.039609,10.086008,16.260445,5.226046,center,0.5,0.177053,,,5,,-0.177052847437409,0
test06,2025-07-18 20:35:23,7,2025-07-18 20:36:43.634,80.136,left,9.168208,12.202068,12.494251,3.429202,center,0.5,0.285864,,,5,,-0.285863598246942,1
test06,2025-07-18 20:35:23,8,2025-07-18 20:36:48.644,85.147,left,31.212868,21.057109,9.34691,12.479274,center,0.5,0.394139,,,5,,0.393592222855678,0
test06,2025-07-18 20:35:23,9,2025-07-18 20:36:53.662,90.165,right,16.533623,7.937385,7.048202,19.760106,left,0.5,0.733812,,,5,,-0.733812189145707,0
test06,2025-07-18 20:35:23,10,2025-07-18 20:36:58.683,95.186,left,14.793655,20.668455,5.763634,4.560735,center,0.5,0.33441,,,5,,-0.334410252262564,1
test06,2025-07-18 20:35:23,11,2025-07-18 20:37:03.705,100.208,left,16.081666,17.498531,9.042874,8.893216,center,0.5,0.084437,,,5,,-0.0844370691997631,1
test06,2025-07-18 20:35:23,12,2025-07-18 20:37:08.721,105.224,right,24.014574,16.765697,6.181561,21.045446,center,0.5,0.359326,,,5,,0.359325942283069,1
test06,2025-07-18 20:35:23,13,2025-07-18 20:37:13.743,110.246,right,15.091801,9.846449,6.50961,6.46631,right,0.5,0.427041,,,5,,0.427040733650041,1
test06,2025-07-18 20:35:23,14,2025-07-18 20:37:18.765,115.268,right,8.905321,22.44153,17.121034,2.507648,left,0.5,0.924264,,,5,,-0.924264296891947,0
test06,2025-07-18 20:35:23,15,2025-07-18 20:37:23.782,120.285,left,26.29932,32.340537,23.081412,4.890798,center,0.5,0.206778,,,5,,-0.206778375498698,1
test06,2025-07-18 20:35:23,16,2025-07-18 20:37:28.805,125.308,right,14.043336,15.744915,11.581933,8.052202,center,0.5,0.118575,,,5,,-0.114369478787959,0
test06,2025-07-18 20:35:23,17,2025-07-18 20:37:33.826,130.329,left,19.449759,35.269141,15.922037,8.499212,left,0.5,0.594595,,,5,,-0.595173709733285,1
test06,2025-07-18 20:35:23,18,2025-07-18 20:37:38.841,135.344,right,38.331048,42.980964,8.22089,8.964174,center,0.5,0.114497,,,5,,-0.11449709947295,0
test06,2025-07-18 20:35:23,19,2025-07-18 20:37:43.855,140.357,right,16.188434,10.40374,14.825708,20.109014,right,0.5,0.442132,,,5,,0.442131679751113,1
test06,2025-07-18 20:35:23,20,2025-07-18 20:37:48.875,145.378,left,16.260139,27.589694,13.088217,4.832113,left,0.5,0.528726,,,5,,-0.528725644524087,1
test06,2025-07-18 20:35:23,21,2025-07-18 20:37:53.890,150.393,right,26.791345,14.961672,13.013991,4.381557,left,0.5,0.582587,,,5,,-0.582587156589755,0
test06,2025-07-18 20:35:23,22,2025-07-18 20:37:58.908,155.41,left,14.586888,9.304937,12.269876,10.792434,right,0.5,0.449578,,,5,,0.449577923487258,0
test06,2025-07-18 20:35:23,23,2025-07-18 20:38:03.917,160.42,left,12.534083,14.388728,10.798851,4.186305,center,0.5,0.130555,,,5,,-0.137993548504928,1
test06,2025-07-18 20:35:23,24,2025-07-18 20:38:08.927,165.429,right,14.16336,18.229201,9.903911,6.428763,center,0.5,0.252366,,,5,,-0.252366410623731,0
test06,2025-07-18 20:35:23,25,2025-07-18 20:38:13.942,170.445,right,12.842809,11.588804,7.915755,11.326798,center,0.5,0.102745,,,5,,0.10274458418596,1
test06,2025-07-18 20:35:23,26,2025-07-18 20:38:18.955,175.458,left,21.331531,21.572556,12.052109,10.136451,center,0.5,0.011236,,,5,,-0.0112356445469545,1
test06,2025-07-18 20:35:23,27,2025-07-18 20:38:23.972,180.475,left,9.134451,10.493285,9.945806,3.1899,center,0.5,0.138683,,,5,,-0.13868243926956,1
test06,2025-07-18 20:35:23,28,2025-07-18 20:38:28.982,185.485,left,51.307141,50.690856,26.246724,17.475572,center,0.5,0.012084,,,5,,0.012084403967294,0
test06,2025-07-18 20:35:23,29,2025-07-18 20:38:33.999,190.501,left,12.564227,23.341685,8.742369,2.262284,left,0.5,0.628223,,,5,,-0.619387168903914,1
test06,2025-07-18 20:35:23,30,2025-07-18 20:38:39.010,195.512,left,6.945728,14.949477,13.964708,3.971037,left,0.5,0.76655,,,5,,-0.766549521620368,1
test06,2025-07-18 20:35:23,31,2025-07-18 20:38:44.015,200.518,left,19.481036,20.171517,10.207865,5.61403,center,0.5,0.03483,,,5,,-0.034830080295134,1
test06,2025-07-18 20:35:23,32,2025-07-18 20:38:49.032,205.535,right,50.470422,37.622135,12.575462,4.95668,center,0.5,0.293795,,,5,,0.293794887729658,1
test06,2025-07-18 20:35:23,33,2025-07-18 20:38:54.047,210.549,left,9.713338,16.45483,9.208365,3.383488,left,0.5,0.527119,,,5,,-0.527119058597524,1
test06,2025-07-18 20:35:23,34,2025-07-18 20:38:59.056,215.558,left,12.139929,16.833884,19.132009,5.168259,center,0.5,0.326894,,,5,,-0.326893822770113,1
test06,2025-07-18 20:35:23,35,2025-07-18 20:39:04.072,220.574,right,7.755968,6.554993,6.095521,6.263516,center,0.5,0.168236,,,5,,-0.168235562205849,0
test06,2025-07-18 20:35:23,36,2025-07-18 20:39:09.087,225.589,left,37.14816,24.384114,6.304283,11.09175,right,0.5,0.422272,,,5,,0.42098238631027,0
test06,2025-07-18 20:35:23,37,2025-07-18 20:39:14.096,230.599,left,14.85064,19.421635,5.58912,7.764143,center,0.5,0.268345,,,5,,0.268344688911237,0
test06,2025-07-18 20:35:23,38,2025-07-18 20:39:19.114,235.617,left,7.868082,17.720886,5.853163,13.982476,right,0.5,0.81193,,,5,,0.811929621492093,0
test06,2025-07-18 20:35:23,39,2025-07-18 20:39:24.136,240.638,right,8.246781,9.54207,12.203948,3.990683,center,0.5,0.145887,,,5,,-0.145887500667594,0
test06,2025-07-18 20:35:23,40,2025-07-18 20:39:29.152,245.654,left,15.315801,15.61809,11.043926,4.289494,center,0.5,0.019545,,,5,,-0.0195448172234278,1
test06,2025-07-18 20:35:23,41,2025-07-18 20:39:34.170,250.673,right,26.814482,28.667561,22.468889,4.942708,center,0.5,0.066824,,,5,,-0.0668240900710266,0
test06,2025-07-18 20:35:23,42,2025-07-18 20:39:39.182,255.685,left,19.195911,30.705249,31.288751,5.28406,left,0.5,0.469736,,,5,,-0.469736329574242,1
test06,2025-07-18 20:35:23,43,2025-07-18 20:39:44.198,260.701,left,18.097039,23.175909,6.261883,9.806046,center,0.5,0.266922,,,5,,0.247365000254611,0
test06,2025-07-18 20:35:23,44,2025-07-18 20:39:49.211,265.714,right,85.24508,60.72275,52.553686,16.913503,center,0.5,0.339212,,,5,,-0.339211979971326,0
test06,2025-07-18 20:35:23,45,2025-07-18 20:39:54.227,270.73,left,16.744865,21.144988,7.966674,10.59063,center,0.5,0.233311,,,5,,-0.233311259308664,1
test06,2025-07-18 20:35:23,46,2025-07-18 20:39:59.240,275.743,left,45.495654,31.699995,14.917046,20.149091,center,0.5,0.3613,,,5,,0.361300281756883,0
test06,2025-07-18 20:35:23,47,2025-07-18 20:40:04.258,280.76,left,30.520609,30.870811,12.394846,10.922127,center,0.5,0.011409,,,5,,0.0114089492843287,0
test06,2025-07-18 20:35:23,48,2025-07-18 20:40:09.265,285.767,right,33.151445,25.315777,12.695765,14.111502,center,0.5,0.272801,,,5,,0.26965850720975,1
test06,2025-07-18 20:35:23,49,2025-07-18 20:40:14.288,290.79,left,14.820992,26.236225,19.826155,5.928878,left,0.5,0.571282,,,5,,-0.571096535197166,1
test06,2025-07-18 20:35:23,50,2025-07-18 20:40:19.303,295.805,left,7.598641,18.191408,34.607728,15.459556,left,0.5,0.87298,,,5,,-0.872979979188718,1
test06,2025-07-18 20:35:23,51,2025-07-18 20:40:24.315,300.817,right,24.922407,50.166244,48.877704,13.395052,left,0.5,0.699575,,,5,,-0.699575091896259,0
test06,2025-07-18 20:35:23,52,2025-07-18 20:40:29.326,305.829,right,14.828535,14.136413,6.612484,5.764671,center,0.5,0.047799,,,5,,0.0477994142498223,1
test06,2025-07-18 20:35:23,53,2025-07-18 20:40:34.347,310.85,left,6.586619,8.731743,13.398929,3.022135,center,0.5,0.281925,,,5,,-0.2819248394969,1
test06,2025-07-18 20:35:23,54,2025-07-18 20:40:39.354,315.856,right,13.141863,19.735669,10.501154,4.581643,left,0.5,0.411733,,,5,,-0.406624823875737,0
test06,2025-07-18 20:35:23,55,2025-07-18 20:40:44.375,320.878,left,10.462204,14.125791,8.005089,7.240474,center,0.5,0.298928,,,5,,-0.300233131566506,1
test06,2025-07-18 20:35:23,56,2025-07-18 20:40:49.385,325.887,left,11.544826,9.327883,7.436886,11.181493,center,0.5,0.213229,,,5,,0.213229284585549,0
test06,2025-07-18 20:35:23,57,2025-07-18 20:40:54.402,330.905,left,7.67791,10.171394,8.75468,2.392128,center,0.5,0.281232,,,5,,-0.281231895773084,1
test06,2025-07-18 20:35:23,58,2025-07-18 20:40:59.416,335.919,right,12.84649,9.949295,7.468391,8.910853,center,0.5,0.255569,,,5,,0.25556892788866,1
test06,2025-07-18 20:35:23,59,2025-07-18 20:41:04.441,340.944,right,14.667861,11.622723,7.147633,3.93937,center,0.5,0.232697,,,5,,0.232696712432488,1
test06,2025-07-18 20:35:23,60,2025-07-18 20:41:09.451,345.953,right,21.160091,10.768495,9.301353,10.732646,right,0.5,0.675492,,,5,,0.675492166162778,1
test06,2025-07-18 20:35:23,61,2025-07-18 20:41:14.475,350.978,left,14.12423,20.761999,8.348167,5.808388,center,0.5,0.385233,,,5,,-0.38523258233387,1
test06,2025-07-18 20:35:23,62,2025-07-18 20:41:19.486,355.988,left,22.734752,16.781479,10.253081,25.7455,center,0.5,0.297674,,,5,,0.303618841127772,0
test06,2025-07-18 20:35:23,63,2025-07-18 20:41:24.497,361,right,26.29889,20.128246,4.015267,9.567819,center,0.5,0.267403,,,5,,0.267402630745907,1
test06,2025-07-18 20:35:23,64,2025-07-18 20:41:29.518,366.021,right,5.731434,4.608022,5.776995,5.131219,center,0.5,0.218167,,,5,,0.218167063508749,1
test06,2025-07-18 20:35:23,65,2025-07-18 20:41:34.532,371.035,right,21.551182,18.506269,11.208299,10.566978,center,0.5,0.152321,,,5,,0.152321124686117,1
test06,2025-07-18 20:35:23,66,2025-07-18 20:41:39.546,376.049,right,18.877048,16.016899,13.893141,7.923968,center,0.5,0.164302,,,5,,-0.164302440194099,0
test06,2025-07-18 20:35:23,67,2025-07-18 20:41:44.559,381.062,left,23.995772,32.233636,14.220359,11.252893,center,0.5,0.278034,,,5,,-0.295132855450509,1
test06,2025-07-18 20:35:23,68,2025-07-18 20:41:49.582,386.084,left,12.728702,19.580081,10.444185,3.766247,left,0.5,0.430653,,,5,,-0.430653330462408,1
test06,2025-07-18 20:35:23,69,2025-07-18 20:41:54.600,391.102,left,13.792017,18.373876,16.903357,7.36428,center,0.5,0.28684,,,5,,-0.286839926640723,1
test06,2025-07-18 20:35:23,70,2025-07-18 20:41:59.622,396.125,left,17.9972,27.350435,19.521509,7.4343,left,0.5,0.418516,,,5,,-0.418516243436934,1
test06,2025-07-18 20:35:23,71,2025-07-18 20:42:04.643,401.146,left,10.905395,26.554042,21.029274,2.029449,left,0.5,0.889924,,,5,,-0.889924356240922,1
test06,2025-07-18 20:35:23,72,2025-07-18 20:42:09.652,406.155,right,13.288439,18.222304,12.523672,9.645367,center,0.5,0.315752,,,5,,-0.315751929190602,0
test06,2025-07-18 20:35:23,73,2025-07-18 20:42:14.671,411.174,left,21.642721,28.436156,23.89707,10.196685,center,0.5,0.272992,,,5,,-0.272992248610563,1
test06,2025-07-18 20:35:23,74,2025-07-18 20:42:19.682,416.185,right,21.668071,18.137202,9.228049,9.493991,center,0.5,0.177875,,,5,,0.177874606484628,1
test06,2025-07-18 20:35:23,75,2025-07-18 20:42:24.704,421.207,left,16.255558,19.858353,10.828962,4.861329,center,0.5,0.207767,,,5,,-0.200189843598718,1
test06,2025-07-18 20:35:23,76,2025-07-18 20:42:29.728,426.231,left,17.194572,20.698472,12.549984,5.027375,center,0.5,0.185644,,,5,,-0.185466128503865,1
test06,2025-07-18 20:35:23,77,2025-07-18 20:42:34.745,431.247,left,14.976323,15.161542,6.208832,4.347175,center,0.5,0.012292,,,5,,0.0122916027366457,0
test06,2025-07-18 20:35:23,78,2025-07-18 20:42:39.764,436.266,left,11.528442,13.01903,11.276017,7.045292,center,0.5,0.121595,,,5,,0.121594933845284,0
test06,2025-07-18 20:35:23,79,2025-07-18 20:42:44.778,441.281,right,29.732695,19.639735,16.848932,4.951248,left,0.5,0.414692,,,5,,-0.414692472113935,0
test06,2025-07-18 20:35:23,80,2025-07-18 20:42:49.799,446.302,right,8.891111,6.60641,11.44397,5.30995,center,0.5,0.297012,,,5,,0.29701162376375,1
test06,2025-07-18 20:35:23,81,2025-07-18 20:42:54.818,451.321,left,10.94383,15.377211,8.021439,7.90886,center,0.5,0.340111,,,5,,-0.340110781097885,1
test06,2025-07-18 20:35:23,82,2025-07-18 20:42:59.831,456.334,right,22.797732,21.603214,7.484574,16.571609,center,0.5,0.053819,,,5,,0.0538189574110048,1
test06,2025-07-18 20:35:23,83,2025-07-18 20:43:04.846,461.349,right,15.55355,14.518009,8.293732,6.065196,center,0.5,0.068899,,,5,,0.0688990296070977,1
test06,2025-07-18 20:35:23,84,2025-07-18 20:43:09.860,466.363,left,5.314013,8.942763,4.591949,3.447639,left,0.5,0.52188,,,5,,-0.520497308136065,1
test06,2025-07-18 20:35:23,85,2025-07-18 20:43:14.873,471.376,right,7.641274,10.258698,4.318428,5.375909,center,0.5,0.294562,,,5,,-0.294561587902027,0
test06,2025-07-18 20:35:23,86,2025-07-18 20:43:19.879,476.382,right,19.8524,24.697963,8.631313,2.007711,center,0.5,0.218396,,,5,,-0.218395863971928,0
test06,2025-07-18 20:35:23,87,2025-07-18 20:43:24.892,481.394,left,6.15944,14.755968,3.78759,2.121177,left,0.5,0.873662,,,5,,-0.873661746800661,1
test06,2025-07-18 20:35:23,88,2025-07-18 20:43:29.909,486.412,left,18.600957,24.296188,27.394428,5.159375,center,0.5,0.267106,,,5,,-0.267106434604283,1
test06,2025-07-18 20:35:23,89,2025-07-18 20:43:34.927,491.429,right,47.152218,24.762437,11.833794,11.450351,right,0.5,0.644053,,,5,,0.644053181478605,1
test06,2025-07-18 20:35:23,90,2025-07-18 20:43:39.937,496.439,left,21.69948,23.413705,18.96115,11.447451,center,0.5,0.076277,,,5,,0.0760332375528918,0
test06,2025-07-18 20:35:23,91,2025-07-18 20:43:44.954,501.457,left,23.066007,24.500342,16.901491,9.221661,center,0.5,0.060327,,,5,,-0.060327101356246,1
test06,2025-07-18 20:35:23,92,2025-07-18 20:43:49.965,506.468,right,12.006825,14.120471,10.172527,5.189172,center,0.5,0.16215,,,5,,-0.162150350338257,0
test06,2025-07-18 20:35:23,93,2025-07-18 20:43:54.978,511.481,right,12.094335,11.102085,6.33692,5.346892,center,0.5,0.085604,,,5,,0.0856042326363777,1
test06,2025-07-18 20:35:23,94,2025-07-18 20:43:59.993,516.496,left,11.471956,7.672194,7.02887,8.198327,center,0.5,0.402303,,,5,,0.402302824406055,0
test06,2025-07-18 20:35:23,95,2025-07-18 20:44:05.004,521.506,left,11.575495,17.338699,11.680829,3.566873,center,0.5,0.404051,,,5,,-0.404050576065776,1
test06,2025-07-18 20:35:23,96,2025-07-18 20:44:10.017,526.52,right,28.345472,16.166183,9.51164,12.719937,right,0.5,0.561546,,,5,,0.561545708302445,1
test06,2025-07-18 20:35:23,97,2025-07-18 20:44:15.029,531.532,left,19.421014,10.053078,9.566748,14.095671,right,0.5,0.658477,,,5,,0.658476819441087,0
test06,2025-07-18 20:35:23,98,2025-07-18 20:44:20.046,536.549,left,9.894562,12.831765,14.757022,3.946979,center,0.5,0.259938,,,5,,-0.259938424070818,1
test06,2025-07-18 20:35:23,99,2025-07-18 20:44:25.063,541.565,right,21.034514,19.15638,7.842344,9.46728,center,0.5,0.093529,,,5,,0.0935287930153232,1
test06,2025-07-18 20:35:23,100,2025-07-18 20:44:30.085,546.587,right,11.924271,12.28986,8.5367,2.930775,center,0.5,0.030199,,,5,,-0.0301986293076677,0
test06,2025-07-18 20:35:23,101,2025-07-18 20:44:35.110,551.613,left,16.582677,16.017921,8.011467,4.719784,center,0.5,0.03465,,,5,,0.0346504383260453,0
test06,2025-07-18 20:35:23,102,2025-07-18 20:44:40.124,556.627,right,36.331607,28.924238,16.561094,17.659552,center,0.5,0.220445,,,5,,-0.228008149931106,0
test06,2025-07-18 20:35:23,103,2025-07-18 20:44:45.141,561.643,left,17.110222,11.962163,7.540353,4.622359,center,0.5,0.358084,,,5,,0.357927477675036,0
test06,2025-07-18 20:35:23,104,2025-07-18 20:44:50.151,566.654,left,4.891918,8.065539,4.171882,6.744984,left,0.5,0.500016,,,5,,-0.50001608571016,1
test06,2025-07-18 20:35:23,105,2025-07-18 20:44:55.168,571.671,left,7.442617,9.79049,5.810003,5.732494,center,0.5,0.274189,,,5,,0.274188972054183,0
test06,2025-07-18 20:35:23,106,2025-07-18 20:45:00.186,576.688,left,9.199225,14.974676,11.27282,7.132755,left,0.5,0.487241,,,5,,-0.487241266331105,1
test06,2025-07-18 20:35:23,107,2025-07-18 20:45:05.198,581.701,right,21.508473,17.65883,5.803294,4.256341,center,0.5,0.197211,,,5,,0.19721100895715,1
test06,2025-07-18 20:35:23,108,2025-07-18 20:45:10.209,586.712,right,19.290791,18.123338,15.377049,14.525356,center,0.5,0.059028,,,5,,0.0624273317947348,1
test06,2025-07-18 20:35:23,109,2025-07-18 20:45:15.222,591.725,left,14.685173,21.786224,13.995455,8.101723,center,0.5,0.394439,,,5,,-0.39443949812994,1
test06,2025-07-18 20:35:23,110,2025-07-18 20:45:20.242,596.745,left,16.585256,19.456089,16.694327,9.30594,center,0.5,0.159646,,,5,,-0.159645972283139,1
test06,2025-07-18 20:35:23,111,2025-07-18 20:45:25.251,601.754,right,16.109948,17.090117,5.050576,6.972917,center,0.5,0.059063,,,5,,-0.0590633738380415,0
test06,2025-07-18 20:35:23,112,2025-07-18 20:45:30.264,606.767,right,25.924609,36.923078,19.780149,7.018824,center,0.5,0.353644,,,5,,-0.353644103572422,0
test06,2025-07-18 20:35:23,113,2025-07-18 20:45:35.271,611.774,left,11.779034,11.854363,5.897602,8.71599,center,0.5,0.007852,,,5,,-0.0063748140060506,1
test06,2025-07-18 20:35:23,114,2025-07-18 20:45:40.284,616.787,right,6.041914,22.533052,9.828659,7.174282,left,0.5,1.316262,,,5,,-1.31626235993004,0
test06,2025-07-18 20:35:23,115,2025-07-18 20:45:45.293,621.796,right,22.929008,16.484421,22.4304,23.631795,center,0.5,0.329987,,,5,,0.329987080764003,1
test06,2025-07-18 20:35:23,116,2025-07-18 20:45:50.308,626.811,right,10.174631,21.324022,15.857935,2.321449,left,0.5,0.739937,,,5,,-0.739936765346562,0
test06,2025-07-18 20:35:23,117,2025-07-18 20:45:55.328,631.83,left,8.528217,14.179455,32.178061,3.515644,left,0.5,0.508414,,,5,,-0.508413773259943,1
test06,2025-07-18 20:35:23,118,2025-07-18 20:46:00.335,636.837,right,11.863925,8.465214,5.462434,7.165802,center,0.5,0.334364,,,5,,0.337536987337745,1
test06,2025-07-18 20:35:23,119,2025-07-18 20:46:05.356,641.859,right,5.901435,5.364694,2.882983,6.080245,center,0.5,0.095356,,,5,,0.0953562035680493,1
test06,2025-07-18 20:35:23,120,2025-07-18 20:46:10.379,646.882,right,44.245027,25.020668,45.673025,9.104618,left,0.5,0.570041,,,5,,-0.570040777634123,0
test06,2025-07-18 20:35:23,121,2025-07-18 20:46:15.401,651.904,right,16.932795,22.733479,13.330944,9.722124,center,0.5,0.294586,,,5,,-0.294586409713023,0
test06,2025-07-18 20:35:23,122,2025-07-18 20:46:20.416,656.918,right,11.239989,14.802956,7.627537,6.023203,center,0.5,0.275349,,,5,,-0.275349024739093,0
test06,2025-07-18 20:35:23,123,2025-07-18 20:46:25.434,661.937,left,36.251913,41.070798,34.226751,10.305032,center,0.5,0.124805,,,5,,-0.124805205698692,1
test06,2025-07-18 20:35:23,124,2025-07-18 20:46:30.447,666.95,left,16.406398,18.304861,17.431809,5.018563,center,0.5,0.109495,,,5,,-0.109495272286105,1
test06,2025-07-18 20:35:23,125,2025-07-18 20:46:35.462,671.965,left,7.913841,10.808946,5.514792,2.669158,center,0.5,0.311761,,,5,,-0.311760872801392,1
test06,2025-07-18 20:35:23,126,2025-07-18 20:46:40.480,676.983,right,32.757862,17.978712,13.343312,15.875337,right,0.5,0.599955,,,5,,0.599954603012528,1
test06,2025-07-18 20:35:23,127,2025-07-18 20:46:45.496,681.999,right,16.858685,8.39735,4.591117,7.599406,right,0.5,0.69695,,,5,,0.69694977439117,1
test06,2025-07-18 20:35:23,128,2025-07-18 20:46:50.514,687.017,right,14.45172,14.029597,8.000728,7.819464,center,0.5,0.026966,,,5,,0.0296442690773512,1
test06,2025-07-18 20:35:23,129,2025-07-18 20:46:55.534,692.037,left,22.11325,15.219879,10.46072,6.378174,center,0.5,0.363959,,,5,,0.37357457404198,0
test06,2025-07-18 20:35:23,130,2025-07-18 20:47:00.553,697.055,left,7.011144,7.635553,5.576994,2.721854,center,0.5,0.085314,,,5,,-0.0853144824815577,1
test06,2025-07-18 20:35:23,131,2025-07-18 20:47:05.561,702.064,right,18.712422,26.561873,16.630408,4.578555,center,0.5,0.350289,,,5,,-0.350289260299772,0
test06,2025-07-18 20:35:23,132,2025-07-18 20:47:10.584,707.086,left,31.234806,41.766962,9.386365,12.52062,center,0.5,0.290573,,,5,,0.290572594293468,0
test06,2025-07-18 20:35:23,133,2025-07-18 20:47:15.600,712.103,left,14.028831,15.875412,10.079784,21.56917,center,0.5,0.123657,,,5,,-0.123656928008977,1
test06,2025-07-18 20:35:23,134,2025-07-18 20:47:20.613,717.115,left,7.889396,14.458122,2.761386,4.894516,right,0.5,0.605737,,,5,,0.605736753448134,0
test06,2025-07-18 20:35:23,135,2025-07-18 20:47:25.625,722.128,left,10.873018,16.799665,10.924551,5.401505,left,0.5,0.435075,,,5,,-0.435074638243097,1
test06,2025-07-18 20:35:23,136,2025-07-18 20:47:30.633,727.135,right,16.242489,12.185933,6.172307,3.604203,center,0.5,0.287348,,,5,,0.287348332838072,1
test06,2025-07-18 20:35:23,137,2025-07-18 20:47:35.648,732.15,right,21.226582,19.130816,15.936272,10.822015,center,0.5,0.103954,,,5,,0.103953826109257,1
test06,2025-07-18 20:35:23,138,2025-07-18 20:47:40.658,737.16,left,16.454472,12.233996,5.255021,3.89155,center,0.5,0.296379,,,5,,0.296378660506432,0
test06,2025-07-18 20:35:23,139,2025-07-18 20:47:45.667,742.17,right,15.175667,6.848751,4.459864,2.290861,left,0.5,0.795627,,,5,,-0.795626989968594,0
test06,2025-07-18 20:35:23,140,2025-07-18 20:47:50.681,747.184,right,36.942411,35.091688,16.620957,12.120075,center,0.5,0.051396,,,5,,0.0513959473320912,1
test06,2025-07-18 20:35:23,141,2025-07-18 20:47:55.701,752.203,right,35.022379,22.347807,10.348879,13.983455,right,0.5,0.44375,,,5,,0.44925906172028,1
test06,2025-07-18 20:35:23,142,2025-07-18 20:48:00.712,757.215,left,21.291309,16.970342,10.803256,12.949613,center,0.5,0.226832,,,5,,0.22683172902561,0
test06,2025-07-18 20:35:23,143,2025-07-18 20:48:05.722,762.225,left,18.986723,20.368991,15.011062,6.116095,center,0.5,0.070274,,,5,,0.0702737499584085,0
test06,2025-07-18 20:35:23,144,2025-07-18 20:48:10.740,767.243,right,19.212603,19.733059,19.377949,6.277028,center,0.5,0.026729,,,5,,-0.0267288811548072,0
test06,2025-07-18 20:35:23,145,2025-07-18 20:48:15.760,772.263,left,11.719593,15.396759,9.788988,7.576151,center,0.5,0.272895,,,5,,-0.272894976142049,1
test06,2025-07-18 20:35:23,146,2025-07-18 20:48:20.787,777.29,right,23.969311,22.931602,18.052307,7.214326,center,0.5,0.044258,,,5,,0.0442583445341937,1
test06,2025-07-18 20:35:23,147,2025-07-18 20:48:25.802,782.305,right,10.587351,5.303646,8.827724,5.088056,right,0.5,0.694022,,,5,,0.691265478104855,1
test06,2025-07-18 20:35:23,148,2025-07-18 20:48:30.822,787.324,right,17.238708,16.288359,11.773113,16.709194,center,0.5,0.056707,,,5,,0.0567066395404696,1
test06,2025-07-18 20:35:23,149,2025-07-18 20:48:35.839,792.342,left,14.936683,22.757889,16.731972,8.675241,left,0.5,0.421092,,,5,,-0.421091720881917,1
test06,2025-07-18 20:35:23,150,2025-07-18 20:48:40.854,797.356,left,8.139189,11.435449,10.28304,5.998043,center,0.5,0.340028,,,5,,-0.340027548515808,1
